subject,trial,condition,word,ink,rt,accuracy
18,1,congruent,BLUE,blue,531.239013360865,1
18,2,congruent,RED,red,517.1245195545094,1
18,3,congruent,RED,red,574.9551766660744,1
18,4,congruent,BLUE,blue,374.7842855253562,1
18,5,congruent,BLUE,blue,479.3243291214848,0
18,6,congruent,GREEN,green,492.5068656948083,1
18,7,congruent,BLUE,blue,383.1435650833168,1
18,8,congruent,YELLOW,yellow,519.7685799422007,1
18,9,congruent,BLUE,blue,537.4917570578588,1
18,10,congruent,BLUE,blue,476.3250755565134,1
18,11,congruent,BLUE,blue,466.2942757101558,1
18,12,congruent,GREEN,green,636.7330261663609,1
18,13,congruent,BLUE,blue,581.8172462329891,0
18,14,congruent,GREEN,green,363.39968000776645,1
18,15,congruent,BLUE,blue,474.9300591459089,1
18,16,congruent,BLUE,blue,478.5317986690213,1
18,17,congruent,BLUE,blue,517.850566342465,1
18,18,congruent,GREEN,green,499.19602169346575,1
18,19,congruent,YELLOW,yellow,525.8226974685365,1
18,20,congruent,GREEN,green,497.04743657160543,1
18,21,congruent,YELLOW,yellow,572.358746162527,1
18,22,congruent,GREEN,green,588.9110234284794,1
18,23,congruent,GREEN,green,322.2793466666217,1
18,24,congruent,YELLOW,yellow,627.4623466160979,1
18,25,congruent,RED,red,437.29598199124626,1
18,26,congruent,GREEN,green,322.31242611313326,1
18,27,congruent,BLUE,blue,603.5538805537352,1
18,28,congruent,RED,red,491.29204005560496,1
18,29,congruent,BLUE,blue,611.3359279876211,1
18,30,congruent,RED,red,471.53399993530513,1
18,31,congruent,BLUE,blue,580.8520842692413,1
18,32,congruent,YELLOW,yellow,359.5837387356945,1
18,33,congruent,YELLOW,yellow,544.5600559913613,1
18,34,congruent,YELLOW,yellow,404.70580979829447,1
18,35,congruent,GREEN,green,576.5296953028636,1
18,36,congruent,YELLOW,yellow,486.1154793267076,1
18,37,congruent,YELLOW,yellow,546.0210256688171,1
18,38,congruent,GREEN,green,507.1075552545171,1
18,39,congruent,GREEN,green,399.37434617562167,1
18,40,congruent,GREEN,green,515.014555417729,1
18,41,congruent,RED,red,514.5897305568043,1
18,42,congruent,YELLOW,yellow,416.7535513471138,1
18,43,congruent,RED,red,467.42552620960254,1
18,44,congruent,GREEN,green,506.24047003318634,1
18,45,congruent,RED,red,724.0882941344935,1
18,46,congruent,RED,red,487.1964359740056,1
18,47,congruent,YELLOW,yellow,367.5043023721631,1
18,48,congruent,YELLOW,yellow,505.1399825214705,1
18,49,congruent,RED,red,481.16630734080854,1
18,50,congruent,GREEN,green,461.32419098016516,1
18,51,congruent,GREEN,green,557.3209946474209,0
18,52,congruent,BLUE,blue,527.8052885413902,1
18,53,congruent,GREEN,green,518.69269588528,1
18,54,congruent,BLUE,blue,559.6449183173778,1
18,55,congruent,BLUE,blue,458.22627166190466,1
18,56,congruent,YELLOW,yellow,519.0303299186912,1
18,57,congruent,YELLOW,yellow,639.9175557575988,1
18,58,congruent,YELLOW,yellow,537.3555264876655,1
18,59,congruent,RED,red,337.42389672117343,1
18,60,congruent,RED,red,561.2303211216888,1
18,61,congruent,BLUE,blue,345.85318876758276,1
18,62,congruent,BLUE,blue,351.1203104079051,1
18,63,congruent,YELLOW,yellow,461.4074478343466,1
18,64,congruent,RED,red,592.2627737536284,1
18,65,congruent,BLUE,blue,487.20734813448496,1
18,66,congruent,BLUE,blue,507.91607891680405,1
18,67,congruent,RED,red,449.15717160604254,0
18,68,congruent,RED,red,438.7305562998233,1
18,69,congruent,RED,red,605.7511051316388,1
18,70,congruent,RED,red,447.50796777835905,1
18,71,congruent,GREEN,green,482.30161692143406,1
18,72,congruent,YELLOW,yellow,399.0044067343564,1
18,73,congruent,BLUE,blue,506.5725949670007,1
18,74,congruent,GREEN,green,487.96884256984225,1
18,75,congruent,RED,red,581.8159569578572,1
18,76,congruent,GREEN,green,397.9181771934332,1
18,77,congruent,YELLOW,yellow,438.17118859647474,1
18,78,congruent,YELLOW,yellow,580.1355511861917,1
18,79,congruent,YELLOW,yellow,420.30663215543314,1
18,80,congruent,BLUE,blue,531.2322586756704,1
18,81,congruent,GREEN,green,583.0034789493991,1
18,82,congruent,BLUE,blue,563.3848480461622,1
18,83,congruent,YELLOW,yellow,327.58322246238936,1
18,84,congruent,RED,red,609.1271878252476,1
18,85,congruent,GREEN,green,389.893859892058,1
18,86,congruent,BLUE,blue,586.7481921926296,1
18,87,congruent,BLUE,blue,579.1281001239012,0
18,88,congruent,YELLOW,yellow,369.3432833017107,1
18,89,congruent,GREEN,green,473.1613689036903,1
18,90,congruent,BLUE,blue,562.7686256463526,1
18,91,congruent,BLUE,blue,372.80877264476874,1
18,92,congruent,RED,red,480.2875276497262,1
18,93,congruent,YELLOW,yellow,412.3521871996884,1
18,94,congruent,BLUE,blue,648.5273351957267,1
18,95,congruent,BLUE,blue,546.2747737494436,0
18,96,congruent,BLUE,blue,619.1045492152751,1
18,97,congruent,GREEN,green,445.13731886923233,1
18,98,congruent,YELLOW,yellow,702.1294616279808,1
18,99,congruent,BLUE,blue,439.37300914357826,1
18,100,congruent,RED,red,568.3182813234941,1
18,101,incongruent,YELLOW,red,607.6914086736916,1
18,102,incongruent,YELLOW,blue,632.0249027113581,0
18,103,incongruent,BLUE,green,656.288007508595,1
18,104,incongruent,RED,yellow,534.982727086989,0
18,105,incongruent,RED,yellow,636.2756779050825,1
18,106,incongruent,GREEN,red,608.0496336587411,1
18,107,incongruent,YELLOW,blue,726.2509481472903,1
18,108,incongruent,BLUE,red,651.6731941269528,1
18,109,incongruent,YELLOW,green,526.6313128663903,0
18,110,incongruent,YELLOW,blue,607.9450604447035,1
18,111,incongruent,YELLOW,blue,540.0456644451777,1
18,112,incongruent,GREEN,blue,741.2291635547194,1
18,113,incongruent,YELLOW,blue,637.579257708775,1
18,114,incongruent,GREEN,red,739.8576296486572,1
18,115,incongruent,BLUE,red,667.194614417481,1
18,116,incongruent,YELLOW,blue,618.4718914315376,1
18,117,incongruent,GREEN,yellow,436.2240395625961,1
18,118,incongruent,RED,blue,723.2749886571917,1
18,119,incongruent,YELLOW,blue,654.9304161004559,0
18,120,incongruent,YELLOW,red,631.735954585973,0
18,121,incongruent,RED,yellow,624.6837531430472,1
18,122,incongruent,RED,yellow,656.2773493364155,1
18,123,incongruent,GREEN,red,726.956333230579,1
18,124,incongruent,YELLOW,blue,681.9151005944066,0
18,125,incongruent,RED,yellow,509.2569006734351,1
18,126,incongruent,YELLOW,blue,689.8792988064904,0
18,127,incongruent,RED,blue,730.0758828576303,1
18,128,incongruent,YELLOW,green,696.3820474038392,1
18,129,incongruent,BLUE,red,743.6874202446041,1
18,130,incongruent,YELLOW,blue,467.1667148052944,1
18,131,incongruent,BLUE,green,639.0261416167206,1
18,132,incongruent,YELLOW,green,715.5686898378199,1
18,133,incongruent,YELLOW,blue,657.5712264995379,0
18,134,incongruent,BLUE,green,665.9712240622364,1
18,135,incongruent,YELLOW,green,711.0379441043773,1
18,136,incongruent,BLUE,red,744.3562284246043,1
18,137,incongruent,GREEN,red,559.8790681539306,1
18,138,incongruent,GREEN,yellow,580.6228206538588,0
18,139,incongruent,YELLOW,green,590.8101944474352,1
18,140,incongruent,RED,green,723.8650016074299,1
18,141,incongruent,BLUE,green,643.9775878403952,1
18,142,incongruent,GREEN,yellow,720.6948117692477,1
18,143,incongruent,RED,green,632.7281176040659,1
18,144,incongruent,YELLOW,red,566.728160556487,1
18,145,incongruent,RED,blue,819.9049874372388,1
18,146,incongruent,RED,yellow,846.1892184973035,0
18,147,incongruent,BLUE,yellow,648.7842219410513,0
18,148,incongruent,RED,blue,522.4657711325558,1
18,149,incongruent,YELLOW,red,808.4416039755439,1
18,150,incongruent,BLUE,red,641.9861898668757,1
18,151,incongruent,RED,blue,697.6603242612491,1
18,152,incongruent,BLUE,yellow,502.9450485831551,1
18,153,incongruent,BLUE,red,823.1892509508083,1
18,154,incongruent,GREEN,yellow,818.9061483887397,0
18,155,incongruent,RED,blue,666.9805097703587,0
18,156,incongruent,BLUE,green,590.3226516107634,1
18,157,incongruent,GREEN,blue,429.1129208754678,1
18,158,incongruent,BLUE,yellow,611.928114150033,1
18,159,incongruent,RED,yellow,723.4802353992525,0
18,160,incongruent,BLUE,green,726.8723667833358,1
18,161,incongruent,RED,green,588.4602735700928,1
18,162,incongruent,RED,blue,813.6658955612298,1
18,163,incongruent,GREEN,yellow,705.4927914117904,1
18,164,incongruent,YELLOW,blue,653.6951145606134,1
18,165,incongruent,RED,blue,630.2617645081185,0
18,166,incongruent,GREEN,red,593.6387660562923,1
18,167,incongruent,GREEN,red,609.3797569235472,0
18,168,incongruent,GREEN,blue,674.6850477096573,1
18,169,incongruent,GREEN,red,644.9503030707585,1
18,170,incongruent,GREEN,red,803.4387641125188,1
18,171,incongruent,GREEN,red,647.2088576641856,1
18,172,incongruent,BLUE,red,576.9685436074885,1
18,173,incongruent,BLUE,red,458.36493071799055,1
18,174,incongruent,BLUE,red,768.5032719237806,0
18,175,incongruent,YELLOW,green,621.023856387392,1
18,176,incongruent,BLUE,green,509.52376267798604,1
18,177,incongruent,GREEN,yellow,562.0567325218004,1
18,178,incongruent,GREEN,blue,904.2988008835994,1
18,179,incongruent,RED,yellow,521.4664766892179,1
18,180,incongruent,GREEN,red,679.2203659952852,1
18,181,incongruent,GREEN,red,465.73317040643985,1
18,182,incongruent,GREEN,yellow,625.8977405935956,1
18,183,incongruent,GREEN,red,682.0739359560788,1
18,184,incongruent,RED,green,625.7878674566006,1
18,185,incongruent,BLUE,red,650.8019638120999,1
18,186,incongruent,RED,green,626.4670784301231,1
18,187,incongruent,RED,yellow,741.7778055444302,0
18,188,incongruent,GREEN,yellow,642.3233344045057,1
18,189,incongruent,RED,green,811.1966124127674,1
18,190,incongruent,RED,yellow,723.9729828702797,1
18,191,incongruent,GREEN,blue,640.136812198554,1
18,192,incongruent,RED,yellow,760.2826357875435,1
18,193,incongruent,RED,yellow,653.7157178046095,1
18,194,incongruent,BLUE,yellow,682.7593448140245,1
18,195,incongruent,YELLOW,green,623.4424051485615,1
18,196,incongruent,YELLOW,red,348.8884779898055,1
18,197,incongruent,BLUE,red,600.733505714914,1
18,198,incongruent,YELLOW,blue,501.14709698123636,1
18,199,incongruent,GREEN,blue,651.9944940185047,0
18,200,incongruent,BLUE,yellow,663.3561765924159,1
