subject,trial,condition,word,ink,rt,accuracy
13,1,congruent,GREEN,green,336.4951664932679,1
13,2,congruent,YELLOW,yellow,325.9110883899513,1
13,3,congruent,RED,red,468.3001224373469,1
13,4,congruent,RED,red,428.99945632238394,1
13,5,congruent,GREEN,green,503.33287330758145,1
13,6,congruent,YELLOW,yellow,456.19592038799,1
13,7,congruent,GREEN,green,465.29923770520435,1
13,8,congruent,GREEN,green,522.9292931927413,1
13,9,congruent,YELLOW,yellow,552.3965858428013,1
13,10,congruent,GREEN,green,467.2230315704515,1
13,11,congruent,GREEN,green,537.0708465670914,1
13,12,congruent,BLUE,blue,354.3407224941534,1
13,13,congruent,BLUE,blue,440.866926049157,1
13,14,congruent,RED,red,522.4284344155672,1
13,15,congruent,RED,red,469.9555367604195,1
13,16,congruent,BLUE,blue,550.634595921856,1
13,17,congruent,RED,red,407.91786373046256,1
13,18,congruent,RED,red,563.1227110326245,1
13,19,congruent,GREEN,green,562.5767914789284,1
13,20,congruent,YELLOW,yellow,514.3300951718511,1
13,21,congruent,BLUE,blue,494.5479165720888,1
13,22,congruent,GREEN,green,571.2698295957697,1
13,23,congruent,RED,red,482.1794016777827,1
13,24,congruent,RED,red,523.1733433619459,1
13,25,congruent,BLUE,blue,409.7987899814344,1
13,26,congruent,GREEN,green,444.9190105365114,1
13,27,congruent,BLUE,blue,530.8877222426499,1
13,28,congruent,BLUE,blue,452.3989193148935,1
13,29,congruent,RED,red,474.2239040373039,1
13,30,congruent,GREEN,green,586.719999888553,1
13,31,congruent,YELLOW,yellow,513.6508349402451,1
13,32,congruent,GREEN,green,540.3965907495949,1
13,33,congruent,BLUE,blue,581.1257793653344,1
13,34,congruent,YELLOW,yellow,479.35325178403474,1
13,35,congruent,BLUE,blue,474.6840779560337,1
13,36,congruent,RED,red,583.3176833011726,1
13,37,congruent,GREEN,green,364.2536708375462,1
13,38,congruent,BLUE,blue,530.0919344443192,1
13,39,congruent,GREEN,green,508.42378915544015,1
13,40,congruent,YELLOW,yellow,626.6791550817696,1
13,41,congruent,GREEN,green,485.73539633364675,1
13,42,congruent,YELLOW,yellow,516.1865773690679,1
13,43,congruent,YELLOW,yellow,397.9315127448665,1
13,44,congruent,YELLOW,yellow,472.3777649966119,1
13,45,congruent,BLUE,blue,411.8064580796611,1
13,46,congruent,RED,red,547.6348562122348,1
13,47,congruent,BLUE,blue,506.56946081769337,1
13,48,congruent,RED,red,473.1308973523884,1
13,49,congruent,BLUE,blue,520.8589029083208,1
13,50,congruent,GREEN,green,608.9890471718693,1
13,51,congruent,GREEN,green,447.0342504935541,1
13,52,congruent,GREEN,green,541.9404300359254,1
13,53,congruent,RED,red,502.5706639818893,1
13,54,congruent,YELLOW,yellow,415.1419614949946,1
13,55,congruent,BLUE,blue,371.4747629886373,1
13,56,congruent,YELLOW,yellow,600.6825955386532,1
13,57,congruent,BLUE,blue,623.4930389163976,0
13,58,congruent,GREEN,green,598.1194527628573,1
13,59,congruent,GREEN,green,421.4602374199061,1
13,60,congruent,BLUE,blue,470.92009865005565,1
13,61,congruent,GREEN,green,655.1790568979839,1
13,62,congruent,BLUE,blue,560.250667541507,1
13,63,congruent,BLUE,blue,552.7772304900843,1
13,64,congruent,RED,red,646.6708511420363,1
13,65,congruent,GREEN,green,409.78081941827946,1
13,66,congruent,RED,red,461.6425343003122,1
13,67,congruent,RED,red,457.6031659017023,1
13,68,congruent,YELLOW,yellow,466.6870826303597,1
13,69,congruent,RED,red,412.8561622436202,1
13,70,congruent,RED,red,507.4421966723307,1
13,71,congruent,BLUE,blue,483.7301986668129,1
13,72,congruent,GREEN,green,425.6429157166774,1
13,73,congruent,GREEN,green,648.2483884115754,1
13,74,congruent,RED,red,504.89493529713366,1
13,75,congruent,BLUE,blue,307.8203999517518,0
13,76,congruent,GREEN,green,474.16772968742174,1
13,77,congruent,BLUE,blue,294.96931084360364,1
13,78,congruent,BLUE,blue,480.5972111613251,1
13,79,congruent,RED,red,530.1475198258975,1
13,80,congruent,RED,red,455.69121225947003,1
13,81,congruent,GREEN,green,497.3081163929155,1
13,82,congruent,YELLOW,yellow,526.656329613975,1
13,83,congruent,RED,red,469.22529676127465,0
13,84,congruent,BLUE,blue,610.2621578449468,1
13,85,congruent,GREEN,green,650.3407104270466,1
13,86,congruent,BLUE,blue,565.054023063642,1
13,87,congruent,BLUE,blue,577.2767212304739,1
13,88,congruent,YELLOW,yellow,686.963569779369,1
13,89,congruent,GREEN,green,489.36933157835557,1
13,90,congruent,YELLOW,yellow,513.9350698160988,1
13,91,congruent,BLUE,blue,375.6455553914808,0
13,92,congruent,BLUE,blue,494.9519608168797,1
13,93,congruent,BLUE,blue,456.9737167798727,1
13,94,congruent,BLUE,blue,488.72436748125267,1
13,95,congruent,GREEN,green,510.0706560859537,1
13,96,congruent,BLUE,blue,489.34323109847185,1
13,97,congruent,RED,red,477.2298903799493,1
13,98,congruent,BLUE,blue,301.49068001974075,0
13,99,congruent,RED,red,597.4171873924561,1
13,100,congruent,GREEN,green,550.4401372623579,1
13,101,incongruent,GREEN,red,667.5652378029223,1
13,102,incongruent,RED,green,730.5696063225057,1
13,103,incongruent,YELLOW,blue,695.6542885333157,1
13,104,incongruent,GREEN,blue,647.5029046089966,1
13,105,incongruent,GREEN,blue,669.1131251914402,1
13,106,incongruent,YELLOW,blue,697.9133621148106,1
13,107,incongruent,YELLOW,red,590.9821579128965,1
13,108,incongruent,BLUE,green,624.631587722769,1
13,109,incongruent,RED,yellow,729.568525238738,1
13,110,incongruent,BLUE,yellow,607.8055645684676,1
13,111,incongruent,GREEN,red,713.3734912118757,1
13,112,incongruent,BLUE,yellow,538.607143514584,0
13,113,incongruent,GREEN,yellow,740.9549892158233,1
13,114,incongruent,YELLOW,blue,776.9026084184953,1
13,115,incongruent,GREEN,blue,604.4508221453382,1
13,116,incongruent,GREEN,blue,491.5906914473686,1
13,117,incongruent,BLUE,red,680.424454410254,1
13,118,incongruent,GREEN,red,674.477901538213,1
13,119,incongruent,YELLOW,red,494.49902688764973,1
13,120,incongruent,RED,blue,709.7472620088279,1
13,121,incongruent,RED,yellow,446.62704390484384,1
13,122,incongruent,YELLOW,red,573.3905571669765,0
13,123,incongruent,YELLOW,green,814.8640743745354,0
13,124,incongruent,GREEN,yellow,728.1861255337272,1
13,125,incongruent,GREEN,yellow,660.7035271527543,0
13,126,incongruent,YELLOW,green,366.0969069338891,1
13,127,incongruent,BLUE,green,658.4047602080913,1
13,128,incongruent,BLUE,green,543.1508274243113,1
13,129,incongruent,BLUE,yellow,654.1520233119023,1
13,130,incongruent,GREEN,red,662.720360449926,1
13,131,incongruent,BLUE,yellow,695.5362146277283,1
13,132,incongruent,YELLOW,blue,619.6057145750196,1
13,133,incongruent,YELLOW,green,634.7367389452963,1
13,134,incongruent,RED,blue,601.2559457458334,1
13,135,incongruent,BLUE,green,662.5658558849877,1
13,136,incongruent,BLUE,red,584.8481978180575,1
13,137,incongruent,RED,green,710.503255413826,0
13,138,incongruent,YELLOW,green,554.4291947488533,0
13,139,incongruent,GREEN,yellow,519.0103111351718,1
13,140,incongruent,GREEN,red,641.3627208153981,1
13,141,incongruent,YELLOW,red,604.3028972465605,1
13,142,incongruent,GREEN,red,694.9581575940742,1
13,143,incongruent,BLUE,yellow,497.13563861094417,1
13,144,incongruent,YELLOW,blue,676.130411406513,1
13,145,incongruent,RED,blue,747.899893179748,1
13,146,incongruent,YELLOW,blue,560.6434360393735,1
13,147,incongruent,YELLOW,green,727.6499229731006,1
13,148,incongruent,BLUE,red,732.7098895919075,1
13,149,incongruent,RED,green,709.0025758779773,1
13,150,incongruent,YELLOW,red,540.1582186649705,1
13,151,incongruent,GREEN,blue,618.6672359565075,1
13,152,incongruent,RED,blue,682.4346507000662,0
13,153,incongruent,GREEN,red,506.10539357659064,1
13,154,incongruent,RED,green,565.3636519202691,1
13,155,incongruent,BLUE,green,698.4003937416095,1
13,156,incongruent,RED,yellow,757.3687496014205,1
13,157,incongruent,YELLOW,blue,682.7073869682667,1
13,158,incongruent,YELLOW,green,600.3142030105802,1
13,159,incongruent,GREEN,blue,586.5196181691352,1
13,160,incongruent,BLUE,red,842.5279541016937,1
13,161,incongruent,BLUE,red,615.9895307159827,1
13,162,incongruent,RED,blue,719.2017584593959,1
13,163,incongruent,BLUE,yellow,537.0759095214315,1
13,164,incongruent,RED,green,549.4249150059137,1
13,165,incongruent,RED,yellow,609.951767769039,1
13,166,incongruent,GREEN,yellow,685.803007046092,1
13,167,incongruent,YELLOW,blue,736.4536504615916,1
13,168,incongruent,BLUE,green,650.84586422097,1
13,169,incongruent,YELLOW,blue,697.1191590201956,0
13,170,incongruent,BLUE,red,640.1344863792965,1
13,171,incongruent,RED,green,684.3637505134219,1
13,172,incongruent,GREEN,yellow,506.03870555691236,1
13,173,incongruent,GREEN,red,655.5956780476886,1
13,174,incongruent,RED,yellow,629.3470191114792,1
13,175,incongruent,YELLOW,green,631.6096751752625,1
13,176,incongruent,BLUE,green,587.8388992428826,1
13,177,incongruent,BLUE,red,822.7971783963872,1
13,178,incongruent,RED,yellow,566.022674413987,1
13,179,incongruent,RED,blue,621.9411530035487,1
13,180,incongruent,BLUE,green,566.2705480931103,1
13,181,incongruent,GREEN,blue,622.5165247423297,1
13,182,incongruent,BLUE,yellow,697.2344695962803,1
13,183,incongruent,RED,yellow,427.4312098154388,1
13,184,incongruent,YELLOW,red,631.6408259817287,1
13,185,incongruent,RED,yellow,620.5850319737168,1
13,186,incongruent,BLUE,green,535.6002020387557,1
13,187,incongruent,GREEN,blue,633.7196232280677,1
13,188,incongruent,RED,yellow,676.7763744882344,0
13,189,incongruent,YELLOW,green,675.6801397637298,1
13,190,incongruent,YELLOW,red,599.6423275536803,1
13,191,incongruent,BLUE,green,881.36823981718,1
13,192,incongruent,BLUE,green,617.1522603151982,1
13,193,incongruent,YELLOW,blue,489.93082576884535,1
13,194,incongruent,YELLOW,blue,594.9107749777186,1
13,195,incongruent,RED,blue,745.984090358391,1
13,196,incongruent,GREEN,red,574.7536795885599,1
13,197,incongruent,YELLOW,green,643.2304515131366,1
13,198,incongruent,YELLOW,green,610.186805013293,1
13,199,incongruent,YELLOW,green,581.4553935302333,1
13,200,incongruent,BLUE,yellow,781.9229697199717,1
