subject,trial,condition,word,ink,rt,accuracy
5,1,congruent,YELLOW,yellow,545.0765405523473,1
5,2,congruent,BLUE,blue,480.81290556918725,1
5,3,congruent,YELLOW,yellow,565.891459554304,1
5,4,congruent,BLUE,blue,553.0713591852868,1
5,5,congruent,BLUE,blue,439.68589432514244,1
5,6,congruent,RED,red,370.3654703890726,1
5,7,congruent,YELLOW,yellow,647.6113628189496,1
5,8,congruent,YELLOW,yellow,546.1585533739363,1
5,9,congruent,BLUE,blue,685.1877913374035,1
5,10,congruent,BLUE,blue,541.8663645099635,1
5,11,congruent,BLUE,blue,489.4630130194346,1
5,12,congruent,BLUE,blue,536.8988198016307,1
5,13,congruent,YELLOW,yellow,507.3018965112546,1
5,14,congruent,RED,red,336.2662020751492,1
5,15,congruent,BLUE,blue,583.517514035297,1
5,16,congruent,YELLOW,yellow,448.5441155979888,1
5,17,congruent,RED,red,484.9034129457888,1
5,18,congruent,YELLOW,yellow,526.3043576313049,1
5,19,congruent,YELLOW,yellow,504.01713566873883,1
5,20,congruent,BLUE,blue,538.2051868167093,1
5,21,congruent,BLUE,blue,478.6512671454691,1
5,22,congruent,YELLOW,yellow,343.93666220733513,1
5,23,congruent,YELLOW,yellow,538.3806539676436,1
5,24,congruent,BLUE,blue,436.47507734811336,1
5,25,congruent,BLUE,blue,537.5319014754745,1
5,26,congruent,BLUE,blue,484.06652905304963,1
5,27,congruent,BLUE,blue,479.86787330230106,1
5,28,congruent,YELLOW,yellow,581.940342742319,1
5,29,congruent,BLUE,blue,537.8131341637928,1
5,30,congruent,BLUE,blue,508.0894934715004,1
5,31,congruent,BLUE,blue,519.3479127580628,1
5,32,congruent,RED,red,595.4812339277252,1
5,33,congruent,YELLOW,yellow,581.6759879338235,1
5,34,congruent,RED,red,377.28045133498426,1
5,35,congruent,GREEN,green,584.3264481865465,1
5,36,congruent,YELLOW,yellow,592.9570471482302,1
5,37,congruent,GREEN,green,474.0928627042423,1
5,38,congruent,GREEN,green,494.9900541892692,1
5,39,congruent,BLUE,blue,569.5693721237841,1
5,40,congruent,GREEN,green,551.2884618469499,1
5,41,congruent,RED,red,595.4498763656406,1
5,42,congruent,GREEN,green,514.9674526907714,1
5,43,congruent,RED,red,411.6546249033638,1
5,44,congruent,BLUE,blue,427.795031690367,1
5,45,congruent,RED,red,449.7089145833461,1
5,46,congruent,YELLOW,yellow,371.2363327409872,1
5,47,congruent,BLUE,blue,423.5206457914986,1
5,48,congruent,GREEN,green,517.1353399816761,1
5,49,congruent,RED,red,543.4548665580412,1
5,50,congruent,RED,red,541.481904818808,1
5,51,congruent,GREEN,green,602.1661517346529,1
5,52,congruent,BLUE,blue,443.1118502067455,1
5,53,congruent,BLUE,blue,541.5124937523046,1
5,54,congruent,BLUE,blue,539.0270218731024,1
5,55,congruent,BLUE,blue,339.1074828687062,1
5,56,congruent,YELLOW,yellow,540.1419630816933,1
5,57,congruent,YELLOW,yellow,468.9001117989899,1
5,58,congruent,BLUE,blue,495.44434441796506,1
5,59,congruent,GREEN,green,527.8316138098129,1
5,60,congruent,RED,red,506.51171614320793,1
5,61,congruent,RED,red,498.6528722837349,0
5,62,congruent,YELLOW,yellow,522.5481410015979,1
5,63,congruent,RED,red,419.23846663104194,0
5,64,congruent,BLUE,blue,453.9669599352868,1
5,65,congruent,GREEN,green,563.6206070913081,1
5,66,congruent,BLUE,blue,501.67832596733246,1
5,67,congruent,RED,red,643.0238987631196,1
5,68,congruent,RED,red,596.2344268619975,1
5,69,congruent,BLUE,blue,538.8293732116936,1
5,70,congruent,RED,red,454.03406783863323,1
5,71,congruent,GREEN,green,515.297978150874,1
5,72,congruent,YELLOW,yellow,471.8433542991264,1
5,73,congruent,BLUE,blue,611.6699805852251,1
5,74,congruent,GREEN,green,696.1843831930929,1
5,75,congruent,BLUE,blue,592.2381165795379,1
5,76,congruent,GREEN,green,380.21358404865316,1
5,77,congruent,GREEN,green,499.82650399021355,1
5,78,congruent,BLUE,blue,441.2328267465725,1
5,79,congruent,BLUE,blue,483.21612461343165,1
5,80,congruent,GREEN,green,505.64800032666807,1
5,81,congruent,RED,red,496.53507249860525,1
5,82,congruent,YELLOW,yellow,600.3324220390487,1
5,83,congruent,BLUE,blue,616.0374303190574,1
5,84,congruent,BLUE,blue,529.1601373306822,1
5,85,congruent,YELLOW,yellow,560.5760277969434,1
5,86,congruent,YELLOW,yellow,443.4190072620954,1
5,87,congruent,RED,red,476.6475731906744,1
5,88,congruent,BLUE,blue,570.8532155200289,1
5,89,congruent,BLUE,blue,667.3326117682478,1
5,90,congruent,YELLOW,yellow,574.6025505960632,1
5,91,congruent,GREEN,green,519.9080300168158,1
5,92,congruent,YELLOW,yellow,561.5032736536776,1
5,93,congruent,GREEN,green,590.1056668685819,1
5,94,congruent,YELLOW,yellow,580.2303480664982,1
5,95,congruent,BLUE,blue,475.83802580589537,0
5,96,congruent,BLUE,blue,508.1412696644901,1
5,97,congruent,RED,red,375.1355520754388,1
5,98,congruent,BLUE,blue,429.7928708307863,1
5,99,congruent,GREEN,green,393.96453847277087,1
5,100,congruent,GREEN,green,490.1663575514203,1
5,101,incongruent,BLUE,yellow,717.0238837859606,1
5,102,incongruent,RED,blue,655.1290061877019,1
5,103,incongruent,GREEN,blue,713.2147178872893,0
5,104,incongruent,GREEN,blue,553.394583106607,1
5,105,incongruent,BLUE,green,618.8646997246673,1
5,106,incongruent,RED,green,762.5093062874685,1
5,107,incongruent,RED,yellow,597.605631167184,1
5,108,incongruent,RED,green,640.7419437989768,1
5,109,incongruent,YELLOW,blue,644.6685605456865,1
5,110,incongruent,YELLOW,blue,559.2015113875092,1
5,111,incongruent,RED,blue,685.0571296022061,1
5,112,incongruent,YELLOW,blue,655.1200199517457,0
5,113,incongruent,BLUE,red,839.6678239355878,1
5,114,incongruent,RED,yellow,556.812924545532,1
5,115,incongruent,BLUE,red,681.6166911740912,1
5,116,incongruent,YELLOW,red,722.7955647417082,1
5,117,incongruent,BLUE,green,579.100672398506,1
5,118,incongruent,BLUE,green,507.0848845871625,1
5,119,incongruent,RED,green,666.8630548424769,1
5,120,incongruent,GREEN,blue,590.3391954826365,1
5,121,incongruent,YELLOW,blue,653.511732210073,1
5,122,incongruent,GREEN,yellow,631.7435129223668,1
5,123,incongruent,RED,yellow,621.2311325042427,1
5,124,incongruent,GREEN,yellow,539.0722981727475,1
5,125,incongruent,RED,green,597.7511999308135,0
5,126,incongruent,GREEN,red,565.6478960178425,1
5,127,incongruent,GREEN,red,600.55263758537,1
5,128,incongruent,GREEN,red,697.7006445952962,1
5,129,incongruent,RED,green,532.9046866569915,1
5,130,incongruent,GREEN,yellow,625.7896001484196,1
5,131,incongruent,YELLOW,blue,738.8637608701491,1
5,132,incongruent,RED,green,800.2092762439776,1
5,133,incongruent,RED,green,639.4656062202558,1
5,134,incongruent,BLUE,green,603.1153908927154,1
5,135,incongruent,RED,green,702.5401160202368,1
5,136,incongruent,BLUE,red,654.9869675946774,1
5,137,incongruent,GREEN,blue,708.225090630011,1
5,138,incongruent,GREEN,yellow,817.8514442743553,1
5,139,incongruent,BLUE,red,619.4222535941612,1
5,140,incongruent,RED,blue,671.256292089528,1
5,141,incongruent,GREEN,yellow,519.025286834789,1
5,142,incongruent,GREEN,red,539.6879635478375,1
5,143,incongruent,RED,yellow,589.8676727683941,1
5,144,incongruent,BLUE,red,617.4626383404492,1
5,145,incongruent,RED,yellow,539.3337851459496,0
5,146,incongruent,YELLOW,green,771.7508352935012,1
5,147,incongruent,YELLOW,green,559.1855018627418,1
5,148,incongruent,YELLOW,green,581.550214914636,1
5,149,incongruent,GREEN,blue,530.452095306397,0
5,150,incongruent,BLUE,yellow,636.7425930738293,1
5,151,incongruent,RED,yellow,624.4286036344323,1
5,152,incongruent,RED,blue,707.7770390209632,1
5,153,incongruent,BLUE,green,360.7461632193749,1
5,154,incongruent,GREEN,yellow,614.3913642057462,1
5,155,incongruent,BLUE,yellow,593.601295024295,1
5,156,incongruent,GREEN,red,755.9062358515619,0
5,157,incongruent,YELLOW,blue,556.2619966170068,0
5,158,incongruent,YELLOW,blue,552.0221065943209,1
5,159,incongruent,RED,yellow,825.4455176382637,1
5,160,incongruent,BLUE,red,631.1192521228866,1
5,161,incongruent,RED,blue,728.0966664304202,1
5,162,incongruent,BLUE,green,640.0234341897788,1
5,163,incongruent,BLUE,green,822.3810496246706,1
5,164,incongruent,BLUE,red,627.8902465387357,1
5,165,incongruent,GREEN,red,523.7346382096184,1
5,166,incongruent,YELLOW,green,873.103374174,1
5,167,incongruent,BLUE,red,780.8376872560181,1
5,168,incongruent,RED,yellow,695.6464463620212,0
5,169,incongruent,RED,green,626.605078249488,1
5,170,incongruent,GREEN,red,676.3723443119044,1
5,171,incongruent,GREEN,red,548.4319363491101,1
5,172,incongruent,GREEN,red,795.3425510180717,1
5,173,incongruent,RED,blue,650.6581677810055,1
5,174,incongruent,BLUE,yellow,759.0259436123149,1
5,175,incongruent,BLUE,green,647.4894928188547,1
5,176,incongruent,BLUE,green,664.4868183331341,1
5,177,incongruent,YELLOW,red,783.1470201795058,1
5,178,incongruent,RED,blue,596.7959987953999,1
5,179,incongruent,YELLOW,blue,548.5082344796994,1
5,180,incongruent,GREEN,yellow,666.9787514990571,0
5,181,incongruent,BLUE,red,466.4540068130197,1
5,182,incongruent,RED,blue,752.236324589869,1
5,183,incongruent,YELLOW,red,690.7300235321771,1
5,184,incongruent,GREEN,blue,546.8755567521728,1
5,185,incongruent,BLUE,yellow,660.1827100770957,1
5,186,incongruent,GREEN,blue,632.3114898151957,1
5,187,incongruent,YELLOW,blue,631.1138854350346,1
5,188,incongruent,YELLOW,green,425.39790414108575,1
5,189,incongruent,GREEN,blue,528.6416060658195,1
5,190,incongruent,YELLOW,red,689.8067880061656,1
5,191,incongruent,RED,blue,745.4241564599602,1
5,192,incongruent,YELLOW,red,775.0975522851484,1
5,193,incongruent,GREEN,blue,605.1723955600107,1
5,194,incongruent,BLUE,green,682.4887325018356,1
5,195,incongruent,RED,blue,690.563327743599,1
5,196,incongruent,YELLOW,red,510.6842973557404,0
5,197,incongruent,YELLOW,red,567.8118238853414,1
5,198,incongruent,RED,yellow,603.3815701750492,1
5,199,incongruent,GREEN,red,544.2198840354181,1
5,200,incongruent,BLUE,green,766.9219132307526,1
