subject,trial,condition,word,ink,rt,accuracy
7,1,congruent,BLUE,blue,587.2621324026101,0
7,2,congruent,RED,red,624.3897918485396,1
7,3,congruent,BLUE,blue,495.040223560369,1
7,4,congruent,GREEN,green,439.51548457972245,1
7,5,congruent,BLUE,blue,617.7972939002088,1
7,6,congruent,BLUE,blue,375.84440839211663,1
7,7,congruent,BLUE,blue,487.28916973686717,1
7,8,congruent,YELLOW,yellow,548.2605615831208,1
7,9,congruent,BLUE,blue,407.0172208736358,1
7,10,congruent,YELLOW,yellow,375.19233729673016,1
7,11,congruent,RED,red,539.1348468490727,1
7,12,congruent,YELLOW,yellow,629.6840405981432,1
7,13,congruent,GREEN,green,442.8210777249154,1
7,14,congruent,BLUE,blue,445.06500502666756,1
7,15,congruent,YELLOW,yellow,424.67169871055256,1
7,16,congruent,BLUE,blue,618.7780799203141,1
7,17,congruent,RED,red,443.3651844503479,1
7,18,congruent,GREEN,green,433.00449548589467,1
7,19,congruent,RED,red,435.6776008504429,1
7,20,congruent,RED,red,452.96768082647355,1
7,21,congruent,BLUE,blue,452.18256464403754,1
7,22,congruent,GREEN,green,548.5157979648122,1
7,23,congruent,GREEN,green,524.1382490176649,1
7,24,congruent,GREEN,green,537.9798603219942,0
7,25,congruent,YELLOW,yellow,449.5839768093648,1
7,26,congruent,BLUE,blue,557.9611448057256,1
7,27,congruent,BLUE,blue,256.5492125937926,1
7,28,congruent,GREEN,green,590.2161737093749,1
7,29,congruent,YELLOW,yellow,515.98771066747,1
7,30,congruent,GREEN,green,467.5918250969297,1
7,31,congruent,RED,red,538.042199939649,1
7,32,congruent,YELLOW,yellow,402.150233285078,1
7,33,congruent,YELLOW,yellow,449.3829156329379,1
7,34,congruent,BLUE,blue,508.7337294143781,1
7,35,congruent,BLUE,blue,374.9954732691124,1
7,36,congruent,RED,red,496.7803653748122,1
7,37,congruent,YELLOW,yellow,497.0936056225016,1
7,38,congruent,YELLOW,yellow,477.68595348064724,1
7,39,congruent,GREEN,green,396.54964404964863,1
7,40,congruent,GREEN,green,593.3440644916211,1
7,41,congruent,YELLOW,yellow,381.17007623098726,1
7,42,congruent,YELLOW,yellow,381.8303671744151,1
7,43,congruent,GREEN,green,453.3887714986488,1
7,44,congruent,BLUE,blue,623.9443032729807,1
7,45,congruent,GREEN,green,508.5506344611976,1
7,46,congruent,GREEN,green,520.7653383002223,1
7,47,congruent,BLUE,blue,482.72090384901634,1
7,48,congruent,GREEN,green,521.6677929320871,0
7,49,congruent,BLUE,blue,550.6551397923114,1
7,50,congruent,RED,red,556.5975465211708,1
7,51,congruent,BLUE,blue,609.654517471361,1
7,52,congruent,BLUE,blue,437.75550927378964,1
7,53,congruent,BLUE,blue,487.35091640820747,1
7,54,congruent,GREEN,green,533.0830930566092,1
7,55,congruent,GREEN,green,566.0060580262862,1
7,56,congruent,RED,red,473.3582200978667,1
7,57,congruent,YELLOW,yellow,552.061917232832,1
7,58,congruent,BLUE,blue,456.12378536500296,1
7,59,congruent,BLUE,blue,472.6818837865226,1
7,60,congruent,GREEN,green,580.9715013001196,1
7,61,congruent,YELLOW,yellow,349.3796398517977,1
7,62,congruent,RED,red,517.7237392578572,0
7,63,congruent,RED,red,574.0751993297715,1
7,64,congruent,YELLOW,yellow,472.4178414621906,1
7,65,congruent,BLUE,blue,549.9884583783696,1
7,66,congruent,RED,red,443.4802965007227,1
7,67,congruent,GREEN,green,513.6965931490708,1
7,68,congruent,BLUE,blue,500.78230055325565,1
7,69,congruent,RED,red,497.7126625467103,1
7,70,congruent,RED,red,397.9370188683541,1
7,71,congruent,RED,red,486.9929567143453,1
7,72,congruent,RED,red,434.8837865586073,1
7,73,congruent,GREEN,green,471.23141748453116,1
7,74,congruent,YELLOW,yellow,581.9395196214258,1
7,75,congruent,RED,red,454.67259343544805,1
7,76,congruent,GREEN,green,497.3816671143715,1
7,77,congruent,BLUE,blue,508.24188974648945,1
7,78,congruent,RED,red,484.8427172470068,1
7,79,congruent,RED,red,564.4872392445579,1
7,80,congruent,YELLOW,yellow,496.60417409284275,1
7,81,congruent,BLUE,blue,512.3918580530815,1
7,82,congruent,YELLOW,yellow,428.77750396136867,1
7,83,congruent,RED,red,469.41927390296297,1
7,84,congruent,RED,red,448.23964543801355,1
7,85,congruent,YELLOW,yellow,537.9422633620422,1
7,86,congruent,GREEN,green,592.1223138633862,1
7,87,congruent,BLUE,blue,463.14948050429865,1
7,88,congruent,BLUE,blue,322.77900921234317,1
7,89,congruent,RED,red,432.3589781988695,1
7,90,congruent,YELLOW,yellow,425.2579284261013,1
7,91,congruent,YELLOW,yellow,594.4603829806131,1
7,92,congruent,BLUE,blue,511.43949471661244,1
7,93,congruent,BLUE,blue,625.1789967518519,1
7,94,congruent,RED,red,532.0723302036304,1
7,95,congruent,RED,red,376.19542234301963,1
7,96,congruent,RED,red,539.5928494606746,1
7,97,congruent,BLUE,blue,440.17168841194723,1
7,98,congruent,YELLOW,yellow,500.0482687512287,1
7,99,congruent,YELLOW,yellow,491.8677303100187,1
7,100,congruent,GREEN,green,488.47534858962763,1
7,101,incongruent,YELLOW,green,626.8677598337513,1
7,102,incongruent,GREEN,red,617.288237278531,1
7,103,incongruent,YELLOW,red,678.7902029979114,1
7,104,incongruent,RED,green,696.6534226807171,1
7,105,incongruent,YELLOW,green,664.5161086801629,1
7,106,incongruent,RED,yellow,709.9325334115896,1
7,107,incongruent,RED,yellow,571.8067657601066,1
7,108,incongruent,RED,yellow,626.1121483812685,0
7,109,incongruent,YELLOW,blue,715.2135347242971,1
7,110,incongruent,RED,green,753.807857111819,1
7,111,incongruent,YELLOW,red,683.8341102765029,1
7,112,incongruent,GREEN,yellow,720.9389825515823,1
7,113,incongruent,RED,green,734.006115846455,1
7,114,incongruent,GREEN,yellow,710.9308995068682,1
7,115,incongruent,YELLOW,green,627.6282332522393,1
7,116,incongruent,BLUE,green,633.5656081695406,0
7,117,incongruent,GREEN,blue,712.1993832386204,1
7,118,incongruent,GREEN,blue,604.461617637946,1
7,119,incongruent,YELLOW,green,636.8016242772361,1
7,120,incongruent,RED,green,640.819299179578,1
7,121,incongruent,YELLOW,blue,491.3190993209088,0
7,122,incongruent,BLUE,red,683.4188898006935,1
7,123,incongruent,YELLOW,green,707.0006842576198,1
7,124,incongruent,GREEN,blue,643.8896632961868,1
7,125,incongruent,YELLOW,green,829.4067199944369,1
7,126,incongruent,YELLOW,green,632.4217630830765,1
7,127,incongruent,RED,green,707.8799236784286,1
7,128,incongruent,GREEN,blue,703.259812823823,1
7,129,incongruent,RED,green,728.4679057850198,1
7,130,incongruent,RED,blue,691.77120868164,1
7,131,incongruent,YELLOW,red,630.8719419535854,1
7,132,incongruent,GREEN,yellow,706.3353249160496,1
7,133,incongruent,GREEN,yellow,675.3522340813204,1
7,134,incongruent,YELLOW,blue,674.3522140168039,1
7,135,incongruent,RED,blue,721.9590249915119,1
7,136,incongruent,YELLOW,green,727.2732980235113,1
7,137,incongruent,GREEN,blue,649.1477135723773,1
7,138,incongruent,RED,blue,611.0930845018248,0
7,139,incongruent,YELLOW,red,782.8233354127692,1
7,140,incongruent,GREEN,red,655.3012552262222,1
7,141,incongruent,YELLOW,red,612.3734842034331,1
7,142,incongruent,GREEN,red,555.3761653121796,1
7,143,incongruent,RED,yellow,676.998948330947,1
7,144,incongruent,RED,green,688.7150587324501,1
7,145,incongruent,YELLOW,green,536.1947398828697,1
7,146,incongruent,YELLOW,green,515.1645510465427,1
7,147,incongruent,YELLOW,red,668.4197119538615,1
7,148,incongruent,GREEN,yellow,568.1100344668994,1
7,149,incongruent,GREEN,red,784.8615299983071,0
7,150,incongruent,BLUE,yellow,539.2800595926993,1
7,151,incongruent,GREEN,red,495.1096885496887,1
7,152,incongruent,RED,yellow,643.0152059889604,1
7,153,incongruent,BLUE,green,696.8005090421516,1
7,154,incongruent,YELLOW,green,665.688114574974,1
7,155,incongruent,YELLOW,red,637.9140362715208,1
7,156,incongruent,GREEN,yellow,687.8800825326744,1
7,157,incongruent,YELLOW,blue,573.1614356056293,1
7,158,incongruent,GREEN,red,672.6991933442807,1
7,159,incongruent,YELLOW,green,566.6312733227702,1
7,160,incongruent,YELLOW,blue,569.5605145274019,1
7,161,incongruent,BLUE,green,660.6715468591871,0
7,162,incongruent,YELLOW,green,691.1464908515078,1
7,163,incongruent,RED,green,563.0878434955748,1
7,164,incongruent,BLUE,yellow,494.90224475205,0
7,165,incongruent,RED,yellow,547.3650022324385,0
7,166,incongruent,BLUE,red,449.9797012144454,1
7,167,incongruent,BLUE,red,662.9017185333089,1
7,168,incongruent,RED,green,708.4768770263072,0
7,169,incongruent,BLUE,red,830.1929145173474,1
7,170,incongruent,BLUE,yellow,560.5271618612791,1
7,171,incongruent,RED,yellow,602.746218720844,1
7,172,incongruent,BLUE,green,639.1491199180098,1
7,173,incongruent,YELLOW,red,673.7583034706238,1
7,174,incongruent,GREEN,yellow,570.1651685619289,1
7,175,incongruent,YELLOW,blue,742.9332179663478,1
7,176,incongruent,GREEN,blue,612.0310839864295,1
7,177,incongruent,BLUE,green,748.5170574488639,1
7,178,incongruent,BLUE,yellow,487.078169277236,1
7,179,incongruent,BLUE,red,633.776533467039,1
7,180,incongruent,GREEN,yellow,684.5774730922208,1
7,181,incongruent,YELLOW,green,600.7809075624643,1
7,182,incongruent,BLUE,red,602.1313230178722,1
7,183,incongruent,RED,blue,586.2265739889929,1
7,184,incongruent,BLUE,green,660.3420706841275,1
7,185,incongruent,YELLOW,green,776.2298359261681,1
7,186,incongruent,RED,yellow,547.5700888633445,1
7,187,incongruent,GREEN,blue,640.0996540950922,1
7,188,incongruent,GREEN,red,601.7433135364664,1
7,189,incongruent,GREEN,red,791.320322147466,1
7,190,incongruent,BLUE,yellow,842.7728182401901,1
7,191,incongruent,BLUE,green,700.0733127839078,1
7,192,incongruent,BLUE,green,656.6310875112672,1
7,193,incongruent,BLUE,red,786.6249802988193,1
7,194,incongruent,GREEN,blue,603.8384868361837,1
7,195,incongruent,RED,green,644.3179618529645,1
7,196,incongruent,BLUE,red,755.0228579145465,1
7,197,incongruent,RED,yellow,660.571373539749,1
7,198,incongruent,RED,yellow,602.4587153361948,1
7,199,incongruent,YELLOW,green,668.4986351845422,1
7,200,incongruent,YELLOW,green,605.2366174493011,1
