subject,trial,condition,word,ink,rt,accuracy
26,1,congruent,GREEN,green,500.0271223074407,1
26,2,congruent,GREEN,green,491.18816331619195,1
26,3,congruent,YELLOW,yellow,552.615953652458,1
26,4,congruent,RED,red,493.19175154103624,1
26,5,congruent,RED,red,555.8719447370563,1
26,6,congruent,RED,red,497.5566466166478,1
26,7,congruent,RED,red,566.3846520085912,1
26,8,congruent,YELLOW,yellow,556.7203747475528,1
26,9,congruent,GREEN,green,423.15897337159316,1
26,10,congruent,RED,red,408.6304372721193,1
26,11,congruent,BLUE,blue,377.4542388169553,1
26,12,congruent,GREEN,green,406.34037168191924,1
26,13,congruent,GREEN,green,258.4602080528882,1
26,14,congruent,YELLOW,yellow,634.2642113182537,1
26,15,congruent,YELLOW,yellow,581.4192149811604,1
26,16,congruent,YELLOW,yellow,432.2008230105107,1
26,17,congruent,YELLOW,yellow,457.82459435328826,1
26,18,congruent,YELLOW,yellow,649.6831055863368,1
26,19,congruent,GREEN,green,372.86282909154545,1
26,20,congruent,BLUE,blue,498.24209940066635,1
26,21,congruent,YELLOW,yellow,389.4577213767165,1
26,22,congruent,YELLOW,yellow,534.7762059317479,1
26,23,congruent,YELLOW,yellow,623.019974103036,1
26,24,congruent,BLUE,blue,557.4830974131401,1
26,25,congruent,RED,red,535.8736467648471,1
26,26,congruent,GREEN,green,434.1351700718463,0
26,27,congruent,BLUE,blue,613.264349808603,1
26,28,congruent,RED,red,511.9496251553029,1
26,29,congruent,GREEN,green,595.1298429477628,1
26,30,congruent,RED,red,552.2460229912533,1
26,31,congruent,BLUE,blue,469.99448877043824,1
26,32,congruent,BLUE,blue,538.6045252399249,1
26,33,congruent,GREEN,green,501.2991975300063,0
26,34,congruent,GREEN,green,549.8028959615615,1
26,35,congruent,BLUE,blue,335.0194002884485,1
26,36,congruent,BLUE,blue,467.63647004561517,1
26,37,congruent,YELLOW,yellow,391.8264131203538,1
26,38,congruent,BLUE,blue,529.919853879561,1
26,39,congruent,YELLOW,yellow,413.7187715824962,1
26,40,congruent,GREEN,green,405.7484126890113,1
26,41,congruent,GREEN,green,463.39812693818266,1
26,42,congruent,YELLOW,yellow,445.4780816261849,1
26,43,congruent,BLUE,blue,458.77706952818676,1
26,44,congruent,BLUE,blue,523.8731223810285,1
26,45,congruent,BLUE,blue,495.00920843308694,1
26,46,congruent,GREEN,green,518.845571376844,1
26,47,congruent,BLUE,blue,403.28189529047705,1
26,48,congruent,YELLOW,yellow,525.9025438740755,1
26,49,congruent,BLUE,blue,443.6146144096497,1
26,50,congruent,BLUE,blue,491.33576712592645,1
26,51,congruent,YELLOW,yellow,415.8654934830673,1
26,52,congruent,GREEN,green,525.585624557175,1
26,53,congruent,RED,red,542.0342289756447,1
26,54,congruent,GREEN,green,509.44920289869935,1
26,55,congruent,YELLOW,yellow,508.6813728147429,1
26,56,congruent,RED,red,592.8986831463812,1
26,57,congruent,RED,red,543.527706520185,1
26,58,congruent,RED,red,569.9732799387305,1
26,59,congruent,YELLOW,yellow,470.07276784221136,1
26,60,congruent,YELLOW,yellow,481.52882692217486,0
26,61,congruent,BLUE,blue,559.2339624451241,1
26,62,congruent,RED,red,512.6266306213614,1
26,63,congruent,YELLOW,yellow,530.8446467411808,1
26,64,congruent,GREEN,green,667.7403141059017,0
26,65,congruent,GREEN,green,577.4048666526653,1
26,66,congruent,RED,red,554.2519482177121,1
26,67,congruent,RED,red,679.7620257491103,1
26,68,congruent,RED,red,428.49442181718325,1
26,69,congruent,GREEN,green,564.2425562184362,1
26,70,congruent,YELLOW,yellow,455.6070055930419,1
26,71,congruent,YELLOW,yellow,527.8270012497609,1
26,72,congruent,RED,red,382.23321584714705,1
26,73,congruent,BLUE,blue,411.8488920255036,1
26,74,congruent,RED,red,585.1471778780888,1
26,75,congruent,YELLOW,yellow,383.1179978907437,1
26,76,congruent,GREEN,green,397.57083700467615,1
26,77,congruent,BLUE,blue,530.5039390448342,1
26,78,congruent,GREEN,green,456.46848020564045,1
26,79,congruent,YELLOW,yellow,421.8871338554103,1
26,80,congruent,BLUE,blue,416.7743310213232,1
26,81,congruent,YELLOW,yellow,461.2019837520029,1
26,82,congruent,RED,red,576.4838142372606,1
26,83,congruent,YELLOW,yellow,475.46677194981487,1
26,84,congruent,RED,red,559.6398806908293,1
26,85,congruent,RED,red,400.7850420597815,1
26,86,congruent,BLUE,blue,507.56198831906545,1
26,87,congruent,YELLOW,yellow,512.4099526657694,1
26,88,congruent,BLUE,blue,510.29749217730824,1
26,89,congruent,RED,red,428.6727983608969,1
26,90,congruent,RED,red,502.74467320361606,1
26,91,congruent,YELLOW,yellow,560.8273300517258,1
26,92,congruent,BLUE,blue,498.6917040267782,1
26,93,congruent,GREEN,green,533.0032597620155,1
26,94,congruent,RED,red,555.9409136783936,1
26,95,congruent,YELLOW,yellow,606.9732324073383,1
26,96,congruent,YELLOW,yellow,495.14633335984934,1
26,97,congruent,RED,red,395.5946161663011,1
26,98,congruent,GREEN,green,567.8241835534001,1
26,99,congruent,BLUE,blue,611.7378694796136,1
26,100,congruent,YELLOW,yellow,500.21302115015186,1
26,101,incongruent,BLUE,yellow,525.6267482572229,1
26,102,incongruent,YELLOW,green,663.788579559944,0
26,103,incongruent,GREEN,red,625.5180990815926,1
26,104,incongruent,BLUE,yellow,589.0879266713923,1
26,105,incongruent,YELLOW,red,633.8123849371145,1
26,106,incongruent,YELLOW,green,684.1465183068141,0
26,107,incongruent,BLUE,green,663.0611982011178,1
26,108,incongruent,RED,yellow,635.9538826731252,1
26,109,incongruent,BLUE,green,499.0164039907096,1
26,110,incongruent,BLUE,green,703.8394086291186,0
26,111,incongruent,YELLOW,blue,708.0896498393317,1
26,112,incongruent,GREEN,yellow,700.3746005017119,1
26,113,incongruent,RED,blue,693.1243687197292,1
26,114,incongruent,BLUE,yellow,604.7649878799945,1
26,115,incongruent,YELLOW,green,705.2570486547047,1
26,116,incongruent,BLUE,yellow,939.7389325490558,1
26,117,incongruent,YELLOW,green,608.4318572739147,1
26,118,incongruent,BLUE,red,715.0948029447288,1
26,119,incongruent,YELLOW,red,636.5663951924065,1
26,120,incongruent,RED,green,626.4689100119672,1
26,121,incongruent,YELLOW,blue,683.5491974072959,1
26,122,incongruent,RED,blue,750.6099629763495,1
26,123,incongruent,RED,yellow,651.6168903656135,1
26,124,incongruent,GREEN,red,543.6420044525988,1
26,125,incongruent,BLUE,yellow,558.2780593601059,1
26,126,incongruent,RED,blue,635.481746764978,1
26,127,incongruent,GREEN,blue,498.78099924795913,1
26,128,incongruent,GREEN,red,821.7287280709393,1
26,129,incongruent,RED,green,832.5541134115297,1
26,130,incongruent,RED,blue,714.5658775586169,1
26,131,incongruent,GREEN,blue,598.3774657945095,1
26,132,incongruent,GREEN,red,536.1311369680993,1
26,133,incongruent,RED,yellow,820.3924998818458,0
26,134,incongruent,GREEN,red,673.5500062077139,1
26,135,incongruent,GREEN,blue,644.8376252291678,1
26,136,incongruent,YELLOW,green,637.933699204977,1
26,137,incongruent,YELLOW,red,530.7264626269543,1
26,138,incongruent,YELLOW,blue,555.9449195129863,0
26,139,incongruent,YELLOW,red,549.2736805058468,1
26,140,incongruent,BLUE,green,527.1886977932227,1
26,141,incongruent,BLUE,red,690.8044950298547,1
26,142,incongruent,YELLOW,green,729.7904248178868,1
26,143,incongruent,BLUE,green,515.0987731725838,1
26,144,incongruent,BLUE,yellow,552.911649768197,1
26,145,incongruent,GREEN,red,577.8302857768895,1
26,146,incongruent,YELLOW,green,584.9176203798908,1
26,147,incongruent,YELLOW,red,656.07390495556194,1
26,148,incongruent,RED,green,573.4211384931629,1
26,149,incongruent,GREEN,yellow,702.808476559129,1
26,150,incongruent,BLUE,yellow,581.1855720843173,1
26,151,incongruent,YELLOW,blue,637.0562911324504,1
26,152,incongruent,YELLOW,blue,727.3421968598925,1
26,153,incongruent,YELLOW,green,727.8568236971356,0
26,154,incongruent,GREEN,yellow,574.9577550858975,1
26,155,incongruent,YELLOW,red,688.8505610028717,1
26,156,incongruent,RED,yellow,491.8840104564171,1
26,157,incongruent,RED,yellow,676.1057587216495,1
26,158,incongruent,BLUE,yellow,646.5451175559947,1
26,159,incongruent,GREEN,yellow,682.5972325260342,1
26,160,incongruent,YELLOW,blue,646.0784451927013,1
26,161,incongruent,BLUE,yellow,436.3136856551913,1
26,162,incongruent,GREEN,red,692.1676458048078,1
26,163,incongruent,GREEN,yellow,524.7132182975705,0
26,164,incongruent,GREEN,blue,633.8441852611347,1
26,165,incongruent,RED,yellow,586.1055254923737,0
26,166,incongruent,YELLOW,blue,674.7416921941629,0
26,167,incongruent,BLUE,green,722.0239938794765,1
26,168,incongruent,YELLOW,green,583.2909022621735,0
26,169,incongruent,YELLOW,green,603.4256611273261,1
26,170,incongruent,RED,green,532.4535053013477,1
26,171,incongruent,BLUE,yellow,465.30590525484945,0
26,172,incongruent,RED,blue,530.5414625934985,1
26,173,incongruent,GREEN,red,599.4253819702086,1
26,174,incongruent,RED,green,608.8941138418572,1
26,175,incongruent,YELLOW,blue,729.7916644428874,1
26,176,incongruent,BLUE,green,613.6216033690733,1
26,177,incongruent,RED,blue,555.2405629693209,1
26,178,incongruent,YELLOW,green,613.2178819087471,0
26,179,incongruent,GREEN,yellow,637.0253956658819,1
26,180,incongruent,RED,green,677.4409110433182,0
26,181,incongruent,BLUE,green,737.3400074443449,1
26,182,incongruent,YELLOW,blue,747.8267448729324,1
26,183,incongruent,YELLOW,red,719.0622107328408,0
26,184,incongruent,BLUE,red,427.380346552946,1
26,185,incongruent,YELLOW,green,515.672822101996,1
26,186,incongruent,YELLOW,blue,643.5580268709493,1
26,187,incongruent,GREEN,yellow,572.256918523809,1
26,188,incongruent,YELLOW,blue,539.6254043966467,1
26,189,incongruent,YELLOW,red,578.6326215415249,1
26,190,incongruent,GREEN,blue,710.8847418985281,1
26,191,incongruent,YELLOW,red,698.3072117445313,1
26,192,incongruent,BLUE,red,767.1046480820153,1
26,193,incongruent,RED,yellow,648.5787622679109,1
26,194,incongruent,YELLOW,green,519.3608732702963,0
26,195,incongruent,RED,green,808.1265703737481,0
26,196,incongruent,YELLOW,blue,574.1306586292679,1
26,197,incongruent,RED,yellow,664.2115694109251,1
26,198,incongruent,BLUE,green,648.0730537862663,1
26,199,incongruent,GREEN,red,683.7889465694209,1
26,200,incongruent,RED,blue,538.9949331461282,1
