subject,trial,condition,word,ink,rt,accuracy
21,1,congruent,BLUE,blue,692.1022899471483,1
21,2,congruent,BLUE,blue,464.1289232017396,1
21,3,congruent,GREEN,green,573.9483989929756,1
21,4,congruent,YELLOW,yellow,516.2350525638371,1
21,5,congruent,GREEN,green,624.1037259773618,1
21,6,congruent,BLUE,blue,510.6726931795226,1
21,7,congruent,RED,red,585.03611303928,1
21,8,congruent,YELLOW,yellow,382.05250780532106,1
21,9,congruent,YELLOW,yellow,473.3815522558099,1
21,10,congruent,YELLOW,yellow,493.9671907468408,1
21,11,congruent,BLUE,blue,431.7168201898885,1
21,12,congruent,BLUE,blue,387.6176138936411,1
21,13,congruent,YELLOW,yellow,455.84137554316237,1
21,14,congruent,YELLOW,yellow,578.3721684882316,0
21,15,congruent,BLUE,blue,497.36056426300564,1
21,16,congruent,GREEN,green,571.6693122270237,1
21,17,congruent,GREEN,green,531.9264857419598,1
21,18,congruent,RED,red,533.7383935391889,1
21,19,congruent,BLUE,blue,592.6855966736119,1
21,20,congruent,YELLOW,yellow,504.2056063242862,1
21,21,congruent,YELLOW,yellow,482.18311743686377,1
21,22,congruent,GREEN,green,609.3998514615864,1
21,23,congruent,BLUE,blue,559.4094892526176,1
21,24,congruent,RED,red,543.9232699797958,1
21,25,congruent,BLUE,blue,411.8972273391775,1
21,26,congruent,BLUE,blue,374.2655628798088,1
21,27,congruent,GREEN,green,320.543519523416,1
21,28,congruent,GREEN,green,517.6796313609377,1
21,29,congruent,GREEN,green,543.0241295335067,1
21,30,congruent,RED,red,504.17993675242116,1
21,31,congruent,GREEN,green,412.9253255625231,0
21,32,congruent,BLUE,blue,472.8951465295003,1
21,33,congruent,YELLOW,yellow,346.83454500655535,1
21,34,congruent,GREEN,green,464.24780277314795,1
21,35,congruent,RED,red,487.43938370473353,1
21,36,congruent,BLUE,blue,430.58898682229056,1
21,37,congruent,BLUE,blue,500.98281215897595,1
21,38,congruent,GREEN,green,454.6549689285037,1
21,39,congruent,RED,red,428.31077348795776,1
21,40,congruent,GREEN,green,661.46413140242,1
21,41,congruent,BLUE,blue,472.40906927505046,1
21,42,congruent,BLUE,blue,580.4019204043323,1
21,43,congruent,YELLOW,yellow,329.4901180670024,1
21,44,congruent,YELLOW,yellow,486.84300604767355,1
21,45,congruent,GREEN,green,420.46080795866897,1
21,46,congruent,GREEN,green,569.1804224687593,0
21,47,congruent,GREEN,green,466.73892008664296,1
21,48,congruent,YELLOW,yellow,657.0292707314265,1
21,49,congruent,GREEN,green,527.0335030282254,1
21,50,congruent,YELLOW,yellow,623.8840393088645,1
21,51,congruent,YELLOW,yellow,400.37900150391465,1
21,52,congruent,RED,red,446.11175752382667,1
21,53,congruent,YELLOW,yellow,583.8015428807123,1
21,54,congruent,BLUE,blue,629.3152770107589,1
21,55,congruent,GREEN,green,432.1016162606338,1
21,56,congruent,BLUE,blue,444.33869328532626,1
21,57,congruent,BLUE,blue,553.9693439176875,1
21,58,congruent,GREEN,green,356.0713881066937,1
21,59,congruent,YELLOW,yellow,494.92217000492633,1
21,60,congruent,GREEN,green,469.01007159830647,1
21,61,congruent,YELLOW,yellow,624.8297631350387,1
21,62,congruent,YELLOW,yellow,477.07090395247695,1
21,63,congruent,GREEN,green,573.6538415874728,1
21,64,congruent,GREEN,green,498.3666164547434,1
21,65,congruent,BLUE,blue,362.55733563465265,1
21,66,congruent,YELLOW,yellow,496.9039946452284,1
21,67,congruent,BLUE,blue,520.3506539348995,1
21,68,congruent,YELLOW,yellow,476.05752536915196,1
21,69,congruent,YELLOW,yellow,544.9682549567635,1
21,70,congruent,YELLOW,yellow,406.98045839714655,1
21,71,congruent,YELLOW,yellow,528.8094266467056,1
21,72,congruent,YELLOW,yellow,407.42085477594475,1
21,73,congruent,BLUE,blue,507.1619453832808,1
21,74,congruent,GREEN,green,490.532177420918,1
21,75,congruent,RED,red,669.1278960374027,1
21,76,congruent,GREEN,green,476.4545858440205,1
21,77,congruent,YELLOW,yellow,492.7715199442116,1
21,78,congruent,BLUE,blue,430.2192388273602,1
21,79,congruent,RED,red,424.5180316863101,1
21,80,congruent,GREEN,green,387.12710289768205,1
21,81,congruent,RED,red,494.0038460122875,1
21,82,congruent,GREEN,green,466.2237659291645,1
21,83,congruent,YELLOW,yellow,535.6491635860434,1
21,84,congruent,RED,red,516.9155901653724,1
21,85,congruent,BLUE,blue,512.7330619056227,1
21,86,congruent,RED,red,416.1318917971189,1
21,87,congruent,RED,red,345.0717316285403,1
21,88,congruent,BLUE,blue,414.75352462866897,1
21,89,congruent,BLUE,blue,538.3382793618824,1
21,90,congruent,YELLOW,yellow,328.96391375642577,1
21,91,congruent,YELLOW,yellow,398.5158130980691,1
21,92,congruent,YELLOW,yellow,452.0635487462646,0
21,93,congruent,YELLOW,yellow,411.5066182214263,1
21,94,congruent,YELLOW,yellow,416.29382969362683,1
21,95,congruent,GREEN,green,345.511762905443,1
21,96,congruent,RED,red,562.846896101461,1
21,97,congruent,RED,red,407.82936709741284,1
21,98,congruent,BLUE,blue,480.89230566914284,1
21,99,congruent,BLUE,blue,526.0877430915793,1
21,100,congruent,YELLOW,yellow,322.4262463457078,1
21,101,incongruent,GREEN,blue,629.0940203095365,1
21,102,incongruent,GREEN,blue,716.101127549149,1
21,103,incongruent,GREEN,yellow,675.4430225008327,1
21,104,incongruent,YELLOW,red,691.5348220008718,1
21,105,incongruent,BLUE,red,602.8237385906467,1
21,106,incongruent,RED,green,620.8810887266379,0
21,107,incongruent,YELLOW,blue,674.9840314315526,1
21,108,incongruent,BLUE,yellow,742.0401874063061,1
21,109,incongruent,YELLOW,green,713.3945641333215,1
21,110,incongruent,RED,blue,473.0235814343559,1
21,111,incongruent,YELLOW,green,560.7281765816728,1
21,112,incongruent,BLUE,yellow,503.80567461687525,1
21,113,incongruent,YELLOW,red,668.6410722541906,1
21,114,incongruent,YELLOW,blue,679.5013117708767,1
21,115,incongruent,RED,yellow,645.6696558026762,0
21,116,incongruent,BLUE,red,652.3578042915537,1
21,117,incongruent,BLUE,green,509.4052699341868,0
21,118,incongruent,RED,green,590.5978593940714,1
21,119,incongruent,BLUE,green,702.4356142079123,0
21,120,incongruent,BLUE,green,681.7616123496566,0
21,121,incongruent,RED,blue,688.7578705475576,1
21,122,incongruent,YELLOW,green,641.1883402513794,0
21,123,incongruent,RED,yellow,697.5931894002373,1
21,124,incongruent,GREEN,blue,648.6556649280127,1
21,125,incongruent,GREEN,yellow,779.7502005679839,1
21,126,incongruent,RED,blue,642.5448034590553,1
21,127,incongruent,YELLOW,blue,713.8613316534758,1
21,128,incongruent,BLUE,red,584.7835303639628,1
21,129,incongruent,GREEN,yellow,702.799852424953,0
21,130,incongruent,YELLOW,red,602.4878272355484,1
21,131,incongruent,RED,green,742.2306523337813,0
21,132,incongruent,GREEN,blue,599.9581847558887,1
21,133,incongruent,GREEN,red,590.6550284918798,0
21,134,incongruent,GREEN,yellow,571.8130946770624,0
21,135,incongruent,RED,yellow,611.5863621007328,1
21,136,incongruent,YELLOW,blue,686.5372243022971,1
21,137,incongruent,RED,green,638.9530736519226,1
21,138,incongruent,YELLOW,blue,787.6338058139197,1
21,139,incongruent,RED,green,529.0558824172339,1
21,140,incongruent,BLUE,red,602.5780109514101,1
21,141,incongruent,YELLOW,blue,629.8027617922868,1
21,142,incongruent,YELLOW,green,736.0263900762488,0
21,143,incongruent,YELLOW,blue,850.2670100246658,1
21,144,incongruent,BLUE,green,432.00265417742077,1
21,145,incongruent,YELLOW,green,646.3396127584602,1
21,146,incongruent,YELLOW,red,638.5010767665844,1
21,147,incongruent,BLUE,yellow,787.9559972976012,1
21,148,incongruent,RED,green,682.5037113629888,1
21,149,incongruent,YELLOW,green,759.6487357289923,1
21,150,incongruent,RED,yellow,727.1967138538132,1
21,151,incongruent,GREEN,yellow,677.437709477022,1
21,152,incongruent,RED,green,562.1208531695994,1
21,153,incongruent,BLUE,green,649.5839519086917,1
21,154,incongruent,YELLOW,red,666.7691321525541,1
21,155,incongruent,GREEN,yellow,901.468184299609,1
21,156,incongruent,RED,blue,691.4369601522151,1
21,157,incongruent,BLUE,red,587.4984309241794,1
21,158,incongruent,YELLOW,red,609.2504096611293,1
21,159,incongruent,GREEN,blue,634.4635877366732,1
21,160,incongruent,BLUE,yellow,678.0369962831501,0
21,161,incongruent,RED,green,483.0215965387489,1
21,162,incongruent,GREEN,yellow,606.8871395571254,1
21,163,incongruent,YELLOW,red,623.0370429487058,1
21,164,incongruent,GREEN,yellow,684.0651655757792,1
21,165,incongruent,GREEN,yellow,481.36715536778024,0
21,166,incongruent,BLUE,red,537.2235522326898,1
21,167,incongruent,YELLOW,green,544.5610776523233,1
21,168,incongruent,BLUE,red,644.6395488154903,1
21,169,incongruent,RED,yellow,707.3902467750503,1
21,170,incongruent,RED,blue,643.1046685001234,0
21,171,incongruent,BLUE,red,590.7661066410506,1
21,172,incongruent,RED,yellow,779.5228885750481,1
21,173,incongruent,GREEN,yellow,554.638760839469,0
21,174,incongruent,BLUE,red,554.4891260866588,1
21,175,incongruent,GREEN,red,882.1097388649935,1
21,176,incongruent,BLUE,yellow,700.9480242872793,1
21,177,incongruent,RED,blue,612.9603835680783,1
21,178,incongruent,YELLOW,red,671.1748996404355,0
21,179,incongruent,BLUE,green,822.0918265043179,1
21,180,incongruent,YELLOW,green,522.9288773666656,1
21,181,incongruent,BLUE,yellow,697.7722815493084,1
21,182,incongruent,RED,blue,729.4258261488282,1
21,183,incongruent,BLUE,green,571.7316850572538,1
21,184,incongruent,YELLOW,red,731.6064502487175,1
21,185,incongruent,RED,yellow,482.17769418516093,1
21,186,incongruent,BLUE,yellow,577.9994171305593,1
21,187,incongruent,RED,yellow,699.4562017941322,1
21,188,incongruent,BLUE,red,855.7967039266896,1
21,189,incongruent,BLUE,red,833.8648103621412,1
21,190,incongruent,RED,blue,450.1368328549794,1
21,191,incongruent,BLUE,red,800.7843560658749,1
21,192,incongruent,YELLOW,red,638.0875268259338,1
21,193,incongruent,BLUE,green,562.0097637477013,1
21,194,incongruent,YELLOW,red,598.9176734228187,1
21,195,incongruent,RED,green,711.8317894516575,1
21,196,incongruent,YELLOW,red,579.5172066501632,1
21,197,incongruent,BLUE,green,624.6783899206488,1
21,198,incongruent,GREEN,yellow,653.5267340168546,1
21,199,incongruent,GREEN,blue,847.6398485064376,1
21,200,incongruent,YELLOW,green,610.5214042887673,1
